{
  "resourceType": "Bundle",
  "id": "RecuperoCABABundleEjemplo",
  "meta": {
    "profile": [
      "http://recuperocaba.gob.ar/StructureDefinition/BundleCabaRecupero"
    ]
  },
  "identifier": {
    "system": "http://hospital1.gob.ar/recuperos",
    "value": "1234567890"
  },
  "entry": [
    {
      "fullUrl": "urn:uuid:23596630-d122-4dd4-bf1e-61a9d287ac05",
      "resource": {
        "resourceType": "Claim",
        "id": "RecuperoCABAClaimEjemplo",
        "meta": {
          "profile": [
            "http://recuperocaba.gob.ar/StructureDefinition/ClaimCabaRecupero"
          ]
        },
        "insurance": [
          {
            "coverage": {
              "identifier": {
                "system": "http://recuperocaba.gob.ar/CodeSystem/coberturas-codesystem",
                "value": "MP004"
              },
              "display": "Medicus"
            },
            "sequence": 1,
            "focal": true
          }
        ],
        "provider": {
          "display": "Hospital 1 - Laboratorio de Análisis Clínicos"
        },
        "facility": {
          "display": "Hospital 1 - Clínica Médica"
        },
        "diagnosis": [
          {
            "sequence": 1,
            "diagnosisCodeableConcept": {
              "coding": [
                {
                  "code": "A010",
                  "system": "http://recuperocaba.gob.ar/CodeSystem/diagnosticos-codesystem",
                  "display": "Fiebre tifoidea"
                }
              ]
            }
          }
        ],
        "procedure": [
          {
            "sequence": 1,
            "date": "2025-03-13",
            "procedureCodeableConcept": {
              "coding": [
                {
                  "code": "475",
                  "system": "http://recuperocaba.gob.ar/CodeSystem/procedimientos-codesystem",
                  "display": "HEMOGRAMA"
                }
              ]
            }
          },
          {
            "sequence": 2,
            "date": "2025-03-13",
            "procedureCodeableConcept": {
              "coding": [
                {
                  "code": "171",
                  "system": "http://recuperocaba.gob.ar/CodeSystem/procedimientos-codesystem",
                  "display": "COAGULOGRAMA"
                }
              ]
            }
          },
          {
            "sequence": 3,
            "date": "2025-03-13",
            "procedureCodeableConcept": {
              "coding": [
                {
                  "code": "481",
                  "system": "http://recuperocaba.gob.ar/CodeSystem/procedimientos-codesystem",
                  "display": "HEPATOGRAMA"
                }
              ]
            }
          },
          {
            "sequence": 4,
            "date": "2025-03-13",
            "procedureCodeableConcept": {
              "coding": [
                {
                  "code": "902",
                  "system": "http://recuperocaba.gob.ar/CodeSystem/procedimientos-codesystem",
                  "display": "UREA, SERICA"
                }
              ]
            }
          },
          {
            "sequence": 5,
            "date": "2025-03-13",
            "procedureCodeableConcept": {
              "coding": [
                {
                  "code": "192",
                  "system": "http://recuperocaba.gob.ar/CodeSystem/procedimientos-codesystem",
                  "display": "CREATININA, EN SANGRE"
                }
              ]
            }
          }
        ],
        "supportingInfo": [
          {
            "sequence": 1,
            "category": {
              "coding": [
                {
                  "code": "attachment",
                  "system": "http://terminology.hl7.org/CodeSystem/claiminformationcategory",
                  "display": "Attachment"
                }
              ]
            },
            "valueReference": {
              "reference": "urn:uuid:59a1159e-3016-4c84-a936-0725edc823a0"
            }
          }
        ],
        "status": "active",
        "use": "claim",
        "priority": {
          "coding": [
            {
              "code": "routine"
            }
          ]
        },
        "type": {
          "coding": [
            {
              "code": "institutional",
              "system": "http://terminology.hl7.org/CodeSystem/claim-type",
              "display": "Institutional"
            }
          ]
        },
        "patient": {
          "reference": "urn:uuid:de45db8b-8e3f-404e-a7af-910a289eeb8c"
        },
        "created": "2025-03-13T07:19:12-03:00",
        "referral": {
          "reference": "urn:uuid:e4caeb31-9418-494e-a945-8799a90fb08c"
        }
      }
    },
    {
      "fullUrl": "urn:uuid:de45db8b-8e3f-404e-a7af-910a289eeb8c",
      "resource": {
        "resourceType": "Patient",
        "id": "RecuperoCABAPacienteEjemplo",
        "meta": {
          "profile": [
            "http://recuperocaba.gob.ar/StructureDefinition/PatientCabaRecupero"
          ]
        },
        "identifier": [
          {
            "use": "usual",
            "value": "7699001",
            "system": "http://hospital1.gob.ar/pacientes"
          },
          {
            "use": "official",
            "system": "http://renaper.gob.ar/dni",
            "value": "99990001"
          }
        ],
        "name": [
          {
            "given": [
              "FLORENCIA",
              "BELEN"
            ],
            "use": "official",
            "family": "PRUEBAPA PRUEBAMA",
            "_family": {
              "extension": [
                {
                  "url": "http://recuperocaba.gob.ar/StructureDefinition/ExtensionFathersFamilyName",
                  "valueString": "PRUEBAPA"
                },
                {
                  "url": "http://recuperocaba.gob.ar/StructureDefinition/ExtensionMothersFamilyName",
                  "valueString": "PRUEBAMA"
                }
              ]
            }
          },
          {
            "given": [
              "BELU"
            ],
            "use": "usual"
          }
        ],
        "gender": "female",
        "birthDate": "1990-01-01"
      }
    },
    {
      "fullUrl": "urn:uuid:e4caeb31-9418-494e-a945-8799a90fb08c",
      "resource": {
        "resourceType": "ServiceRequest",
        "id": "RecuperoCABAServiceRequestEjemplo",
        "meta": {
          "profile": [
            "http://recuperocaba.gob.ar/StructureDefinition/ServiceRequestCabaRecupero"
          ]
        },
        "locationCode": [
          {
            "text": "Laboratorio de Análisis Clínicos"
          }
        ],
        "identifier": [
          {
            "system": "http://hospital1.gob.ar/pedidos",
            "value": "12345"
          }
        ],
        "category": [
          {
            "coding": [
              {
                "code": "108252007",
                "system": "http://snomed.info/sct",
                "display": "Laboratory Procedure"
              }
            ]
          }
        ],
        "performer": [
          {
            "reference": "urn:uuid:576e3804-7d1a-4530-9c3d-a8e16779f2a8"
          }
        ],
        "status": "completed",
        "intent": "order",
        "subject": {
          "reference": "urn:uuid:de45db8b-8e3f-404e-a7af-910a289eeb8c"
        },
        "encounter": {
          "reference": "urn:uuid:108abd93-5b06-415b-9c66-0fe8b2c29ccf"
        },
        "authoredOn": "2025-03-13T07:19:12-03:00",
        "occurrenceDateTime": "2025-03-15T07:19:12-03:00",
        "requester": {
          "reference": "urn:uuid:511b97a7-5ac5-4c5f-9e4f-94e17db97958"
        }
      }
    },
    {
      "fullUrl": "urn:uuid:108abd93-5b06-415b-9c66-0fe8b2c29ccf",
      "resource": {
        "resourceType": "Encounter",
        "id": "RecuperoCABAEncounterEjemplo",
        "meta": {
          "profile": [
            "http://recuperocaba.gob.ar/StructureDefinition/EncounterCabaRecupero"
          ]
        },
        "type": [
          {
            "text": "Immunología"
          }
        ],
        "identifier": [
          {
            "system": "http://hospital1.gob.ar/episodios",
            "value": "130145562"
          }
        ],
        "status": "unknown",
        "class": {
          "code": "AMB",
          "system": "http://terminology.hl7.org/CodeSystem/v3-ActCode",
          "display": "ambulatory"
        },
        "subject": {
          "reference": "urn:uuid:de45db8b-8e3f-404e-a7af-910a289eeb8c"
        }
      }
    },
    {
      "fullUrl": "urn:uuid:576e3804-7d1a-4530-9c3d-a8e16779f2a8",
      "resource": {
        "resourceType": "Practitioner",
        "id": "RecuperoCABAProfesionalFirmanteEjemplo",
        "meta": {
          "profile": [
            "http://recuperocaba.gob.ar/StructureDefinition/PractitionerCabaRecupero"
          ]
        },
        "identifier": [
          {
            "system": "http://recuperocaba.gob.ar/CodeSystem/recupero-tipos-matricula/10002001110000",
            "value": "116772b"
          }
        ],
        "name": [
          {
            "text": "DELIA JUAN"
          }
        ],
        "qualification": [
          {
            "code": {
              "coding": [
                {
                  "code": "27",
                  "system": "http://recuperocaba.gob.ar/CodeSystem/profesiones-codesystem",
                  "display": "Bioquímico"
                }
              ]
            }
          }
        ]
      }
    },
    {
      "fullUrl": "urn:uuid:511b97a7-5ac5-4c5f-9e4f-94e17db97958",
      "resource": {
        "resourceType": "Practitioner",
        "id": "RecuperoCABAProfesionalSolicitanteEjemplo",
        "meta": {
          "profile": [
            "http://recuperocaba.gob.ar/StructureDefinition/PractitionerCabaRecupero"
          ]
        },
        "identifier": [
          {
            "system": "http://recuperocaba.gob.ar/CodeSystem/recupero-tipos-matricula/10006441714000",
            "value": "16772"
          }
        ],
        "name": [
          {
            "text": "CARRERA VALERIA"
          }
        ],
        "qualification": [
          {
            "code": {
              "coding": [
                {
                  "code": "1",
                  "system": "http://recuperocaba.gob.ar/CodeSystem/profesiones-codesystem",
                  "display": "Médico"
                }
              ]
            }
          }
        ]
      }
    },
    {
      "fullUrl": "urn:uuid:59a1159e-3016-4c84-a936-0725edc823a0",
      "resource": {
        "resourceType": "DocumentReference",
        "id": "RecuperoCABADocumentacionAdicionalEjemplo",
        "content": [
          {
            "attachment": {
              "contentType": "application/pdf",
              "data": "JVBERi0xLjQKMSAwIG9iago8PC9UeXBlIC9DYXRhbG9nCi9QYWdlcyAyIDAgUgo+PgplbmRvYmoK MiAwIG9iago8PC9UeXBlIC9QYWdlcwovS2lkcyBbMyAwIFJdCi9Db3VudCAxCj4+CmVuZG9iagoz IDAgb2JqCjw8L1R5cGUgL1BhZ2UKL1BhcmVudCAyIDAgUgovTWVkaWFCb3ggWzAgMCA1OTUgODQy XQovQ29udGVudHMgNSAwIFIKL1Jlc291cmNlcyA8PC9Qcm9jU2V0IFsvUERGIC9UZXh0XQovRm9u dCA8PC9GMSA0IDAgUj4+Cj4+Cj4+CmVuZG9iago0IDAgb2JqCjw8L1R5cGUgL0ZvbnQKL1N1YnR5 cGUgL1R5cGUxCi9OYW1lIC9GMQovQmFzZUZvbnQgL0hlbHZldGljYQovRW5jb2RpbmcgL01hY1Jv bWFuRW5jb2RpbmcKPj4KZW5kb2JqCjUgMCBvYmoKPDwvTGVuZ3RoIDUzCj4+CnN0cmVhbQpCVAov RjEgMjAgVGYKMjIwIDQwMCBUZAooRHVtbXkgUERGKSBUagpFVAplbmRzdHJlYW0KZW5kb2JqCnhy ZWYKMCA2CjAwMDAwMDAwMDAgNjU1MzUgZgowMDAwMDAwMDA5IDAwMDAwIG4KMDAwMDAwMDA2MyAw MDAwMCBuCjAwMDAwMDAxMjQgMDAwMDAgbgowMDAwMDAwMjc3IDAwMDAwIG4KMDAwMDAwMDM5MiAw MDAwMCBuCnRyYWlsZXIKPDwvU2l6ZSA2Ci9Sb290IDEgMCBSCj4+CnN0YXJ0eHJlZgo0OTUKJSVFT0YK"
            }
          }
        ],
        "status": "current",
        "type": {
          "coding": [
            {
              "code": "11502-2",
              "system": "http://loinc.org",
              "display": "Laboratory Report"
            }
          ]
        },
        "subject": {
          "reference": "urn:uuid:de45db8b-8e3f-404e-a7af-910a289eeb8c"
        },
        "date": "2025-03-13T07:19:12-03:00"
      }
    }
  ],
  "type": "collection",
  "timestamp": "2025-03-13T07:19:12-03:00"
}
