<?xml version="1.0" encoding="UTF-8"?>

<Bundle xmlns="http://hl7.org/fhir">
  <id value="RecuperoCABABundleEjemplo"/>
  <meta>
    <profile value="http://recuperocaba.gob.ar/StructureDefinition/BundleCabaRecupero"/>
  </meta>
  <identifier>
    <system value="http://hospital1.gob.ar/recuperos"/>
    <value value="1234567890"/>
  </identifier>
  <type value="collection"/>
  <timestamp value="2025-03-13T07:19:12-03:00"/>
  <entry>
    <fullUrl value="urn:uuid:23596630-d122-4dd4-bf1e-61a9d287ac05"/>
    <resource>
      <Claim>
        <id value="RecuperoCABAClaimEjemplo"/>
        <meta>
          <profile value="http://recuperocaba.gob.ar/StructureDefinition/ClaimCabaRecupero"/>
        </meta>
        <text>
          <status value="generated"/><div xmlns="http://www.w3.org/1999/xhtml"><a name="Claim_RecuperoCABAClaimEjemplo"> </a><p class="res-header-id"><b>Generated Narrative: Claim RecuperoCABAClaimEjemplo</b></p><a name="RecuperoCABAClaimEjemplo"> </a><a name="hcRecuperoCABAClaimEjemplo"> </a><div style="display: inline-block; background-color: #d9e0e7; padding: 6px; margin: 4px; border: 1px solid #8da1b4; border-radius: 5px; line-height: 60%"><p style="margin-bottom: 0px"/><p style="margin-bottom: 0px">Profile: <a href="StructureDefinition-ClaimCabaRecupero.html">Claim Recupero Para CABA</a></p></div><p><b>status</b>: Active</p><p><b>type</b>: <span title="Codes:{http://terminology.hl7.org/CodeSystem/claim-type institutional}">Institutional</span></p><p><b>use</b>: Claim</p><p><b>patient</b>: <a href="Bundle-RecuperoCABABundleEjemplo.html#urn-uuid-de45db8b-8e3f-404e-a7af-910a289eeb8c">Bundle: identifier = http://hospital1.gob.ar/recuperos#1234567890; type = collection; timestamp = 2025-03-13 07:19:12-0300</a></p><p><b>created</b>: 2025-03-13 07:19:12-0300</p><p><b>provider</b>: Hospital 1 - Laboratorio de Análisis Clínicos</p><p><b>priority</b>: <span title="Codes:{http://terminology.hl7.org/CodeSystem/processpriority normal}">Normal</span></p><p><b>referral</b>: <a href="Bundle-RecuperoCABABundleEjemplo.html#urn-uuid-e4caeb31-9418-494e-a945-8799a90fb08c">Bundle: identifier = http://hospital1.gob.ar/recuperos#1234567890; type = collection; timestamp = 2025-03-13 07:19:12-0300</a></p><p><b>facility</b>: Hospital 1 - Clínica Médica</p><h3>SupportingInfos</h3><table class="grid"><tr><td style="display: none">-</td><td><b>Sequence</b></td><td><b>Category</b></td><td><b>Value[x]</b></td></tr><tr><td style="display: none">*</td><td>1</td><td><span title="Codes:{http://terminology.hl7.org/CodeSystem/claiminformationcategory attachment}">Attachment</span></td><td><a href="Bundle-RecuperoCABABundleEjemplo.html#urn-uuid-59a1159e-3016-4c84-a936-0725edc823a0">Bundle: identifier = http://hospital1.gob.ar/recuperos#1234567890; type = collection; timestamp = 2025-03-13 07:19:12-0300</a></td></tr></table><h3>Diagnoses</h3><table class="grid"><tr><td style="display: none">-</td><td><b>Sequence</b></td><td><b>Diagnosis[x]</b></td></tr><tr><td style="display: none">*</td><td>1</td><td><span title="Codes:{http://recuperocaba.gob.ar/CodeSystem/diagnosticos-codesystem A010}">Fiebre tifoidea</span></td></tr></table><blockquote><p><b>procedure</b></p><p><b>sequence</b>: 1</p><p><b>date</b>: 2025-03-13</p><p><b>procedure</b>: <span title="Codes:{http://recuperocaba.gob.ar/CodeSystem/procedimientos-codesystem 475}">HEMOGRAMA COMPLETO</span></p></blockquote><blockquote><p><b>procedure</b></p><p><b>sequence</b>: 2</p><p><b>date</b>: 2025-03-13</p><p><b>procedure</b>: <span title="Codes:{http://recuperocaba.gob.ar/CodeSystem/procedimientos-codesystem 171}">COAGULOGRAMA COMPLETO</span></p></blockquote><blockquote><p><b>procedure</b></p><p><b>sequence</b>: 3</p><p><b>date</b>: 2025-03-13</p><p><b>procedure</b>: <span title="Codes:{http://recuperocaba.gob.ar/CodeSystem/procedimientos-codesystem 481}">HEPATOGRAMA COMPLETO</span></p></blockquote><blockquote><p><b>procedure</b></p><p><b>sequence</b>: 4</p><p><b>date</b>: 2025-03-13</p><p><b>procedure</b>: <span title="Codes:{http://recuperocaba.gob.ar/CodeSystem/procedimientos-codesystem 902}">UREMIA</span></p></blockquote><blockquote><p><b>procedure</b></p><p><b>sequence</b>: 5</p><p><b>date</b>: 2025-03-13</p><p><b>procedure</b>: <span title="Codes:{http://recuperocaba.gob.ar/CodeSystem/procedimientos-codesystem 192}">CREATININA</span></p></blockquote><h3>Insurances</h3><table class="grid"><tr><td style="display: none">-</td><td><b>Sequence</b></td><td><b>Focal</b></td><td><b>Coverage</b></td></tr><tr><td style="display: none">*</td><td>1</td><td>true</td><td>Medicus (Identifier: <code>http://recuperocaba.gob.ar/CodeSystem/coberturas-codesystem</code>/MP004)</td></tr></table></div>
        </text>
        <status value="active"/>
        <type>
          <coding>
            <system value="http://terminology.hl7.org/CodeSystem/claim-type"/>
            <code value="institutional"/>
            <display value="Institutional"/>
          </coding>
        </type>
        <use value="claim"/>
        <patient>
          <reference value="urn:uuid:de45db8b-8e3f-404e-a7af-910a289eeb8c"/>
        </patient>
        <created value="2025-03-13T07:19:12-03:00"/>
        <provider>
          <display value="Hospital 1 - Laboratorio de Análisis Clínicos"/>
        </provider>
        <priority>
          <coding>
            <system value="http://terminology.hl7.org/CodeSystem/processpriority"/>
            <code value="normal"/>
          </coding>
        </priority>
        <referral>
          <reference value="urn:uuid:e4caeb31-9418-494e-a945-8799a90fb08c"/>
        </referral>
        <facility>
          <display value="Hospital 1 - Clínica Médica"/>
        </facility>
        <supportingInfo>
          <sequence value="1"/>
          <category>
            <coding>
              <system value="http://terminology.hl7.org/CodeSystem/claiminformationcategory"/>
              <code value="attachment"/>
              <display value="Attachment"/>
            </coding>
          </category>
          <valueReference>
            <reference value="urn:uuid:59a1159e-3016-4c84-a936-0725edc823a0"/>
          </valueReference>
        </supportingInfo>
        <diagnosis>
          <sequence value="1"/>
          <diagnosisCodeableConcept>
            <coding>
              <system value="http://recuperocaba.gob.ar/CodeSystem/diagnosticos-codesystem"/>
              <code value="A010"/>
              <display value="Fiebre tifoidea"/>
            </coding>
          </diagnosisCodeableConcept>
        </diagnosis>
        <procedure>
          <sequence value="1"/>
          <date value="2025-03-13"/>
          <procedureCodeableConcept>
            <coding>
              <system value="http://recuperocaba.gob.ar/CodeSystem/procedimientos-codesystem"/>
              <code value="475"/>
              <display value="HEMOGRAMA COMPLETO"/>
            </coding>
          </procedureCodeableConcept>
        </procedure>
        <procedure>
          <sequence value="2"/>
          <date value="2025-03-13"/>
          <procedureCodeableConcept>
            <coding>
              <system value="http://recuperocaba.gob.ar/CodeSystem/procedimientos-codesystem"/>
              <code value="171"/>
              <display value="COAGULOGRAMA COMPLETO"/>
            </coding>
          </procedureCodeableConcept>
        </procedure>
        <procedure>
          <sequence value="3"/>
          <date value="2025-03-13"/>
          <procedureCodeableConcept>
            <coding>
              <system value="http://recuperocaba.gob.ar/CodeSystem/procedimientos-codesystem"/>
              <code value="481"/>
              <display value="HEPATOGRAMA COMPLETO"/>
            </coding>
          </procedureCodeableConcept>
        </procedure>
        <procedure>
          <sequence value="4"/>
          <date value="2025-03-13"/>
          <procedureCodeableConcept>
            <coding>
              <system value="http://recuperocaba.gob.ar/CodeSystem/procedimientos-codesystem"/>
              <code value="902"/>
              <display value="UREMIA"/>
            </coding>
          </procedureCodeableConcept>
        </procedure>
        <procedure>
          <sequence value="5"/>
          <date value="2025-03-13"/>
          <procedureCodeableConcept>
            <coding>
              <system value="http://recuperocaba.gob.ar/CodeSystem/procedimientos-codesystem"/>
              <code value="192"/>
              <display value="CREATININA"/>
            </coding>
          </procedureCodeableConcept>
        </procedure>
        <insurance>
          <sequence value="1"/>
          <focal value="true"/>
          <coverage>
            <identifier>
              <system value="http://recuperocaba.gob.ar/CodeSystem/coberturas-codesystem"/>
              <value value="MP004"/>
            </identifier>
            <display value="Medicus"/>
          </coverage>
        </insurance>
      </Claim>
    </resource>
  </entry>
  <entry>
    <fullUrl value="urn:uuid:de45db8b-8e3f-404e-a7af-910a289eeb8c"/>
    <resource>
      <Patient>
        <id value="RecuperoCABAPacienteEjemplo"/>
        <meta>
          <profile value="http://recuperocaba.gob.ar/StructureDefinition/PatientCabaRecupero"/>
        </meta>
        <text>
          <status value="generated"/><div xmlns="http://www.w3.org/1999/xhtml"><a name="Patient_RecuperoCABAPacienteEjemplo"> </a><p class="res-header-id"><b>Generated Narrative: Patient RecuperoCABAPacienteEjemplo</b></p><a name="RecuperoCABAPacienteEjemplo"> </a><a name="hcRecuperoCABAPacienteEjemplo"> </a><div style="display: inline-block; background-color: #d9e0e7; padding: 6px; margin: 4px; border: 1px solid #8da1b4; border-radius: 5px; line-height: 60%"><p style="margin-bottom: 0px"/><p style="margin-bottom: 0px">Profile: <a href="StructureDefinition-PatientCabaRecupero.html">Paciente para Recupero CABA</a></p></div><p style="border: 1px #661aff solid; background-color: #e6e6ff; padding: 10px;">BELU  Female, DoB: 1990-01-01 ( http://hospital1.gob.ar/pacientes#7699001 (use: usual, ))</p><hr/><table class="grid"><tr><td style="background-color: #f3f5da" title="Other Id (see the one above)">Other Id:</td><td colspan="3"><code>http://renaper.gob.ar/dni</code>/99990001 (use: official, )</td></tr><tr><td style="background-color: #f3f5da" title="Alternate names (see the one above)">Alt. Name:</td><td colspan="3">FLORENCIA BELEN PRUEBAPA PRUEBAMA (Official)</td></tr></table></div>
        </text>
        <identifier>
          <use value="usual"/>
          <system value="http://hospital1.gob.ar/pacientes"/>
          <value value="7699001"/>
        </identifier>
        <identifier>
          <use value="official"/>
          <system value="http://renaper.gob.ar/dni"/>
          <value value="99990001"/>
        </identifier>
        <name>
          <use value="official"/>
          <family value="PRUEBAPA PRUEBAMA">
            <extension url="http://recuperocaba.gob.ar/StructureDefinition/ExtensionFathersFamilyName">
              <valueString value="PRUEBAPA"/>
            </extension>
            <extension url="http://recuperocaba.gob.ar/StructureDefinition/ExtensionMothersFamilyName">
              <valueString value="PRUEBAMA"/>
            </extension>
          </family>
          <given value="FLORENCIA"/>
          <given value="BELEN"/>
        </name>
        <name>
          <use value="usual"/>
          <given value="BELU"/>
        </name>
        <gender value="female"/>
        <birthDate value="1990-01-01"/>
      </Patient>
    </resource>
  </entry>
  <entry>
    <fullUrl value="urn:uuid:e4caeb31-9418-494e-a945-8799a90fb08c"/>
    <resource>
      <ServiceRequest>
        <id value="RecuperoCABAServiceRequestEjemplo"/>
        <meta>
          <profile value="http://recuperocaba.gob.ar/StructureDefinition/ServiceRequestCabaRecupero"/>
        </meta>
        <text>
          <status value="generated"/><div xmlns="http://www.w3.org/1999/xhtml"><a name="ServiceRequest_RecuperoCABAServiceRequestEjemplo"> </a><p class="res-header-id"><b>Generated Narrative: ServiceRequest RecuperoCABAServiceRequestEjemplo</b></p><a name="RecuperoCABAServiceRequestEjemplo"> </a><a name="hcRecuperoCABAServiceRequestEjemplo"> </a><div style="display: inline-block; background-color: #d9e0e7; padding: 6px; margin: 4px; border: 1px solid #8da1b4; border-radius: 5px; line-height: 60%"><p style="margin-bottom: 0px"/><p style="margin-bottom: 0px">Profile: <a href="StructureDefinition-ServiceRequestCabaRecupero.html">ServiceRequest para Recupero CABA</a></p></div><p><b>identifier</b>: <code>http://hospital1.gob.ar/pedidos</code>/12345</p><p><b>status</b>: Completed</p><p><b>intent</b>: Order</p><p><b>category</b>: <span title="Codes:{http://snomed.info/sct 108252007}">Laboratory Procedure</span></p><p><b>subject</b>: <a href="Bundle-RecuperoCABABundleEjemplo.html#urn-uuid-de45db8b-8e3f-404e-a7af-910a289eeb8c">Bundle: identifier = http://hospital1.gob.ar/recuperos#1234567890; type = collection; timestamp = 2025-03-13 07:19:12-0300</a></p><p><b>encounter</b>: <a href="Bundle-RecuperoCABABundleEjemplo.html#urn-uuid-108abd93-5b06-415b-9c66-0fe8b2c29ccf">Bundle: identifier = http://hospital1.gob.ar/recuperos#1234567890; type = collection; timestamp = 2025-03-13 07:19:12-0300</a></p><p><b>occurrence</b>: 2025-03-15 07:19:12-0300</p><p><b>authoredOn</b>: 2025-03-13 07:19:12-0300</p><p><b>requester</b>: <a href="Bundle-RecuperoCABABundleEjemplo.html#urn-uuid-511b97a7-5ac5-4c5f-9e4f-94e17db97958">Bundle: identifier = http://hospital1.gob.ar/recuperos#1234567890; type = collection; timestamp = 2025-03-13 07:19:12-0300</a></p><p><b>performer</b>: <a href="Bundle-RecuperoCABABundleEjemplo.html#urn-uuid-576e3804-7d1a-4530-9c3d-a8e16779f2a8">Bundle: identifier = http://hospital1.gob.ar/recuperos#1234567890; type = collection; timestamp = 2025-03-13 07:19:12-0300</a></p><p><b>locationCode</b>: <span title="Codes:">Laboratorio de Análisis Clínicos</span></p></div>
        </text>
        <identifier>
          <system value="http://hospital1.gob.ar/pedidos"/>
          <value value="12345"/>
        </identifier>
        <status value="completed"/>
        <intent value="order"/>
        <category>
          <coding>
            <system value="http://snomed.info/sct"/>
            <code value="108252007"/>
            <display value="Laboratory Procedure"/>
          </coding>
        </category>
        <subject>
          <reference value="urn:uuid:de45db8b-8e3f-404e-a7af-910a289eeb8c"/>
        </subject>
        <encounter>
          <reference value="urn:uuid:108abd93-5b06-415b-9c66-0fe8b2c29ccf"/>
        </encounter>
        <occurrenceDateTime value="2025-03-15T07:19:12-03:00"/>
        <authoredOn value="2025-03-13T07:19:12-03:00"/>
        <requester>
          <reference value="urn:uuid:511b97a7-5ac5-4c5f-9e4f-94e17db97958"/>
        </requester>
        <performer>
          <reference value="urn:uuid:576e3804-7d1a-4530-9c3d-a8e16779f2a8"/>
        </performer>
        <locationCode>
          <text value="Laboratorio de Análisis Clínicos"/>
        </locationCode>
      </ServiceRequest>
    </resource>
  </entry>
  <entry>
    <fullUrl value="urn:uuid:108abd93-5b06-415b-9c66-0fe8b2c29ccf"/>
    <resource>
      <Encounter>
        <id value="RecuperoCABAEncounterEjemplo"/>
        <meta>
          <profile value="http://recuperocaba.gob.ar/StructureDefinition/EncounterCabaRecupero"/>
        </meta>
        <text>
          <status value="generated"/><div xmlns="http://www.w3.org/1999/xhtml"><a name="Encounter_RecuperoCABAEncounterEjemplo"> </a><p class="res-header-id"><b>Generated Narrative: Encounter RecuperoCABAEncounterEjemplo</b></p><a name="RecuperoCABAEncounterEjemplo"> </a><a name="hcRecuperoCABAEncounterEjemplo"> </a><div style="display: inline-block; background-color: #d9e0e7; padding: 6px; margin: 4px; border: 1px solid #8da1b4; border-radius: 5px; line-height: 60%"><p style="margin-bottom: 0px"/><p style="margin-bottom: 0px">Profile: <a href="StructureDefinition-EncounterCabaRecupero.html">Encuentro para Recupero CABA</a></p></div><p><b>identifier</b>: <code>http://hospital1.gob.ar/episodios</code>/130145562</p><p><b>status</b>: Unknown</p><p><b>class</b>: <a href="http://terminology.hl7.org/6.5.0/CodeSystem-v3-ActCode.html#v3-ActCode-AMB">ActCode AMB</a>: ambulatory</p><p><b>type</b>: <span title="Codes:">Immunología</span></p><p><b>subject</b>: <a href="Bundle-RecuperoCABABundleEjemplo.html#urn-uuid-de45db8b-8e3f-404e-a7af-910a289eeb8c">Bundle: identifier = http://hospital1.gob.ar/recuperos#1234567890; type = collection; timestamp = 2025-03-13 07:19:12-0300</a></p></div>
        </text>
        <identifier>
          <system value="http://hospital1.gob.ar/episodios"/>
          <value value="130145562"/>
        </identifier>
        <status value="unknown"/>
        <class>
          <system value="http://terminology.hl7.org/CodeSystem/v3-ActCode"/>
          <code value="AMB"/>
          <display value="ambulatory"/>
        </class>
        <type>
          <text value="Immunología"/>
        </type>
        <subject>
          <reference value="urn:uuid:de45db8b-8e3f-404e-a7af-910a289eeb8c"/>
        </subject>
      </Encounter>
    </resource>
  </entry>
  <entry>
    <fullUrl value="urn:uuid:576e3804-7d1a-4530-9c3d-a8e16779f2a8"/>
    <resource>
      <Practitioner>
        <id value="RecuperoCABAProfesionalFirmanteEjemplo"/>
        <meta>
          <profile value="http://recuperocaba.gob.ar/StructureDefinition/PractitionerCabaRecupero"/>
        </meta>
        <text>
          <status value="generated"/><div xmlns="http://www.w3.org/1999/xhtml"><a name="Practitioner_RecuperoCABAProfesionalFirmanteEjemplo"> </a><p class="res-header-id"><b>Generated Narrative: Practitioner RecuperoCABAProfesionalFirmanteEjemplo</b></p><a name="RecuperoCABAProfesionalFirmanteEjemplo"> </a><a name="hcRecuperoCABAProfesionalFirmanteEjemplo"> </a><div style="display: inline-block; background-color: #d9e0e7; padding: 6px; margin: 4px; border: 1px solid #8da1b4; border-radius: 5px; line-height: 60%"><p style="margin-bottom: 0px"/><p style="margin-bottom: 0px">Profile: <a href="StructureDefinition-PractitionerCabaRecupero.html">Practitioner para Recupero CABA</a></p></div><p><b>identifier</b>: <code>http://recuperocaba.gob.ar/CodeSystem/recupero-tipos-matricula/10002001110000</code>/116772b</p><p><b>name</b>: DELIA JUAN</p><h3>Qualifications</h3><table class="grid"><tr><td style="display: none">-</td><td><b>Code</b></td></tr><tr><td style="display: none">*</td><td><span title="Codes:{http://recuperocaba.gob.ar/CodeSystem/profesionesefectores-codesystem 27}">Bioquímico</span></td></tr></table></div>
        </text>
        <identifier>
          <system value="http://recuperocaba.gob.ar/CodeSystem/recupero-tipos-matricula/10002001110000"/>
          <value value="116772b"/>
        </identifier>
        <name>
          <text value="DELIA JUAN"/>
        </name>
        <qualification>
          <code>
            <coding>
              <system value="http://recuperocaba.gob.ar/CodeSystem/profesionesefectores-codesystem"/>
              <code value="27"/>
              <display value="Bioquímico"/>
            </coding>
          </code>
        </qualification>
      </Practitioner>
    </resource>
  </entry>
  <entry>
    <fullUrl value="urn:uuid:511b97a7-5ac5-4c5f-9e4f-94e17db97958"/>
    <resource>
      <Practitioner>
        <id value="RecuperoCABAProfesionalSolicitanteEjemplo"/>
        <meta>
          <profile value="http://recuperocaba.gob.ar/StructureDefinition/PractitionerCabaRecupero"/>
        </meta>
        <text>
          <status value="generated"/><div xmlns="http://www.w3.org/1999/xhtml"><a name="Practitioner_RecuperoCABAProfesionalSolicitanteEjemplo"> </a><p class="res-header-id"><b>Generated Narrative: Practitioner RecuperoCABAProfesionalSolicitanteEjemplo</b></p><a name="RecuperoCABAProfesionalSolicitanteEjemplo"> </a><a name="hcRecuperoCABAProfesionalSolicitanteEjemplo"> </a><div style="display: inline-block; background-color: #d9e0e7; padding: 6px; margin: 4px; border: 1px solid #8da1b4; border-radius: 5px; line-height: 60%"><p style="margin-bottom: 0px"/><p style="margin-bottom: 0px">Profile: <a href="StructureDefinition-PractitionerCabaRecupero.html">Practitioner para Recupero CABA</a></p></div><p><b>identifier</b>: <code>http://recuperocaba.gob.ar/CodeSystem/recupero-tipos-matricula/10006441714000</code>/16772</p><p><b>name</b>: CARRERA VALERIA</p><h3>Qualifications</h3><table class="grid"><tr><td style="display: none">-</td><td><b>Code</b></td></tr><tr><td style="display: none">*</td><td><span title="Codes:{http://recuperocaba.gob.ar/CodeSystem/profesiones-codesystem 1}">Médico</span></td></tr></table></div>
        </text>
        <identifier>
          <system value="http://recuperocaba.gob.ar/CodeSystem/recupero-tipos-matricula/10006441714000"/>
          <value value="16772"/>
        </identifier>
        <name>
          <text value="CARRERA VALERIA"/>
        </name>
        <qualification>
          <code>
            <coding>
              <system value="http://recuperocaba.gob.ar/CodeSystem/profesiones-codesystem"/>
              <code value="1"/>
              <display value="Médico"/>
            </coding>
          </code>
        </qualification>
      </Practitioner>
    </resource>
  </entry>
  <entry>
    <fullUrl value="urn:uuid:59a1159e-3016-4c84-a936-0725edc823a0"/>
    <resource>
      <DocumentReference>
        <id value="RecuperoCABADocumentacionAdicionalEjemplo"/>
        <text>
          <status value="generated"/><div xmlns="http://www.w3.org/1999/xhtml"><a name="DocumentReference_RecuperoCABADocumentacionAdicionalEjemplo"> </a><p class="res-header-id"><b>Generated Narrative: DocumentReference RecuperoCABADocumentacionAdicionalEjemplo</b></p><a name="RecuperoCABADocumentacionAdicionalEjemplo"> </a><a name="hcRecuperoCABADocumentacionAdicionalEjemplo"> </a><p><b>status</b>: Current</p><p><b>type</b>: <span title="Codes:{http://loinc.org 11502-2}">Laboratory Report</span></p><p><b>subject</b>: <a href="Bundle-RecuperoCABABundleEjemplo.html#urn-uuid-de45db8b-8e3f-404e-a7af-910a289eeb8c">Bundle: identifier = http://hospital1.gob.ar/recuperos#1234567890; type = collection; timestamp = 2025-03-13 07:19:12-0300</a></p><p><b>date</b>: 2025-03-13 07:19:12-0300</p><blockquote><p><b>content</b></p><h3>Attachments</h3><table class="grid"><tr><td style="display: none">-</td><td><b>ContentType</b></td><td><b>Data</b></td></tr><tr><td style="display: none">*</td><td>application/pdf</td><td><code>JVBERi0xLjQKMSAwIG9iago8PC9UeXBlIC9DYXRhbG9nCi9QYWdlcyAyIDAgUgo+PgplbmRvYmoK MiAwIG9iago8PC9UeXBlIC9QYWdlcwovS2lkcyBbMyAwIFJdCi9Db3VudCAxCj4+CmVuZG9iagoz IDAgb2JqCjw8L1R5cGUgL1BhZ2UKL1BhcmVudCAyIDAgUgovTWVkaWFCb3ggWzAgMCA1OTUgODQy XQovQ29udGVudHMgNSAwIFIKL1Jlc291cmNlcyA8PC9Qcm9jU2V0IFsvUERGIC9UZXh0XQovRm9u dCA8PC9GMSA0IDAgUj4+Cj4+Cj4+CmVuZG9iago0IDAgb2JqCjw8L1R5cGUgL0ZvbnQKL1N1YnR5 cGUgL1R5cGUxCi9OYW1lIC9GMQovQmFzZUZvbnQgL0hlbHZldGljYQovRW5jb2RpbmcgL01hY1Jv bWFuRW5jb2RpbmcKPj4KZW5kb2JqCjUgMCBvYmoKPDwvTGVuZ3RoIDUzCj4+CnN0cmVhbQpCVAov RjEgMjAgVGYKMjIwIDQwMCBUZAooRHVtbXkgUERGKSBUagpFVAplbmRzdHJlYW0KZW5kb2JqCnhy ZWYKMCA2CjAwMDAwMDAwMDAgNjU1MzUgZgowMDAwMDAwMDA5IDAwMDAwIG4KMDAwMDAwMDA2MyAw MDAwMCBuCjAwMDAwMDAxMjQgMDAwMDAgbgowMDAwMDAwMjc3IDAwMDAwIG4KMDAwMDAwMDM5MiAw MDAwMCBuCnRyYWlsZXIKPDwvU2l6ZSA2Ci9Sb290IDEgMCBSCj4+CnN0YXJ0eHJlZgo0OTUKJSVFT0YK</code></td></tr></table></blockquote></div>
        </text>
        <status value="current"/>
        <type>
          <coding>
            <system value="http://loinc.org"/>
            <code value="11502-2"/>
            <display value="Laboratory Report"/>
          </coding>
        </type>
        <subject>
          <reference value="urn:uuid:de45db8b-8e3f-404e-a7af-910a289eeb8c"/>
        </subject>
        <date value="2025-03-13T07:19:12-03:00"/>
        <content>
          <attachment>
            <contentType value="application/pdf"/>
            <data value="JVBERi0xLjQKMSAwIG9iago8PC9UeXBlIC9DYXRhbG9nCi9QYWdlcyAyIDAgUgo+PgplbmRvYmoK MiAwIG9iago8PC9UeXBlIC9QYWdlcwovS2lkcyBbMyAwIFJdCi9Db3VudCAxCj4+CmVuZG9iagoz IDAgb2JqCjw8L1R5cGUgL1BhZ2UKL1BhcmVudCAyIDAgUgovTWVkaWFCb3ggWzAgMCA1OTUgODQy XQovQ29udGVudHMgNSAwIFIKL1Jlc291cmNlcyA8PC9Qcm9jU2V0IFsvUERGIC9UZXh0XQovRm9u dCA8PC9GMSA0IDAgUj4+Cj4+Cj4+CmVuZG9iago0IDAgb2JqCjw8L1R5cGUgL0ZvbnQKL1N1YnR5 cGUgL1R5cGUxCi9OYW1lIC9GMQovQmFzZUZvbnQgL0hlbHZldGljYQovRW5jb2RpbmcgL01hY1Jv bWFuRW5jb2RpbmcKPj4KZW5kb2JqCjUgMCBvYmoKPDwvTGVuZ3RoIDUzCj4+CnN0cmVhbQpCVAov RjEgMjAgVGYKMjIwIDQwMCBUZAooRHVtbXkgUERGKSBUagpFVAplbmRzdHJlYW0KZW5kb2JqCnhy ZWYKMCA2CjAwMDAwMDAwMDAgNjU1MzUgZgowMDAwMDAwMDA5IDAwMDAwIG4KMDAwMDAwMDA2MyAw MDAwMCBuCjAwMDAwMDAxMjQgMDAwMDAgbgowMDAwMDAwMjc3IDAwMDAwIG4KMDAwMDAwMDM5MiAw MDAwMCBuCnRyYWlsZXIKPDwvU2l6ZSA2Ci9Sb290IDEgMCBSCj4+CnN0YXJ0eHJlZgo0OTUKJSVFT0YK"/>
          </attachment>
        </content>
      </DocumentReference>
    </resource>
  </entry>
</Bundle>